Folder: DIMAT_DATA_CLEAN_AITEX/scripts/T00_dataclean_v0/raw

File: AITEX.csv
Date;Test;Material;Nº holes / Nº filaments;Diameter (mm);L/D;Filter (um);Sand quantity (cm);Sand size (um);Support;Vpump (rpm);Vext (rpm);TE1 (°C);TE2 (°C);TE3 (°C);TE4 (°C);TD(°C);PD(bar);PE(bar);VTO (m/min);VG1(m/min);VG2(m/min);VG3(m/min);VG4(m/min);Vwinder (m/min);Winder tension (N);Tg1(°C);Tg2(°C);Tg3(°C);Quench (%);Spin. F (rmp);Height (m);Count (dtex);Tenacity (g/den);Elongation (%)
02/03/2021;P21-30;COPET GP001-EASTMAN;36;0.4;4/1;60;;;4;10;23.9;280;285;285;290;295;95.2;69.1;968;1005;1701;1751;1780;1845;;85;110;110;20;24;1.4;155;0.54;44.94
30/03/2021;P21-40;PET + 3% Antivirico SUKANO;72;0.3;2/1;34;3;355-500;2;20;64;275;280;285;285;290;91.1;75;2695;2765;2765;2695;2695;2780;18;;;;24;20;1.5;218;2.28;92.61
24/05/2021;P21-55;PP HS61R;12;0.5;4/1;;;;2;20;44;195;195;200;200;200;0;75;1252;1549;1900;1991;1971;2000;25;;;;60;22;2.25;210;2.33;226.67
01/06/2021;P21-62;PP HS61R;12;0.5;4/1;178;2;500-800;2;33;60;190;200;210;210;210;34;75;1399;2489;2501;2661;2558;2595;;;;;100;22;2.25;240;1.41;108.6
22/06/2021;P21-70;PP H561R;12;0.5;4/1;60;;300-800;2;30;65;210;220;225;225;220;17.4;70;1252;2099;2349;2661;2558;2590;20;;;;95;24;2.25;230;1.84;86.44
13/07/2021;P21-79;PA B33L;36;0.4;4/1;34;;;;19;33;255;265;275;275;280;98;75;2431;2516;2525;2465;2460;2530;12;;;;70;23;1.4;180;2.88;89.89
15/07/2021;P21-91;PA6 B27;36;0.4;4/1;60;;;;25;64;275;285;290;275;270;83;86.9;2700;2959;2994;3218;3233;3315;27;65;65;;50;30;1.4;200;3.39;71.3
08/09/2021;P21-100;PES + 1% BB101 R4.47;72;0.4;2/1;178;2;355-500;2;20;79;260;270;275;275;275;3;60;2240;2361;2355;2289;2299;2370;;;;;30;24;1.3;260;1.52;165
16/09/2021;P21-108;PA H24;;;;60;;;;10;80;250;255;260;260;275;86;53;1262;1906;2105;2440;2406;2500;;75;80;;45;12;1.3;110;3.68;61.67
20/10/2021;P21-115;PLA LUMINY L130;72;0.3;2/1;60;1;180-250;2;24;48;225;215;220;230;245;125;75;2620;2750;2820;2950;2930;3010;22;;;;15;20;1.3;230;2.22;50.43
10/11/2021;P21-128;PP HS61R;48;0.2;;60;;;;28;62;215;225;235;240;350;0;80;1149;1225;1799;2494;2348;2430;;60;80;90;80;25;2.4;240;3.49;82.33
29/11/2021;P21-137;PBT + 15% SPH16W;72;0.35;4/1;60;2;355-500;2;13;59;245;250;255;260;265;34;70;2651;2751;2751;2695;2695;2780;;;;;25;22;1.3;135;1.8;72.28
02/12/2021;P21-145;PBT + 15% MB;72;0.35;4/1;60;4;500-850;2;11;84;250;260;270;270;275;59;70;2850;2900;2926;2860;2860;2955;12;;;;20;20;1.3;107;2.01;27.33
22/12/2021;P21-154;LOWMELT 53001;72;0.3;2/1;178;3;355-500;178;20;52.8;240;260;265;270;275;102.8;65;800;900;2600;2950;2930;3055;21;70;85;115;30;22;1.3;185;2.61;34.94
14/02/2022;P22-08;100%MB SP16H;72;0.35;4/1;60;2;355-500;2;13;60;260;265;275;275;275;58;70;2100;2200;2550;2489;2499;2570;20;;;;15;20;1.2;155;1.5;96
23/02/2022;P22-19;Pruebas PP Amarilleamiento;72;0.6;4/1;178;;;;33;94.32;240;260;275;280;280;32.1;66.1;523;550;1600;1858;1820;1882;;70;135;125;60;12;2.1;330;3.72;80.3
21/03/2022;P22-33*;rPET;75;0.3;2/1;90;;;;25;62;270;280;290;290;295;115.4;65;700;750;1500;2515;2485;2565;;85;100;130;30;18;1.3;290;2.9;27
24/03/2022;P22-40;PHB 2450 mod;48;0.4;4/1;90;4;500-855;2;12;58;165;170;175;185;185;0;50;850;1939;1980;1942;1932;2000;20;;;;20;16;1.3;168;0.92;59
11/04/2022;P22-53;TCP - ET;12;0.5;4/1;178;;;;14;34.7;210;220;230;240;240;134.6;62.8;800;850;865;900;935;985;;;;;80;18;2.3;390;0.83;360
13/04/2022;P22-60;TPX;72;0.4;4/1;60;;;;12.5;68;265;275;280;285;288;52.9;50;1160;1300;1450;1750;1735;1775;;140;160;145;15;18;1.15;130;2.4;23
31/05/2022;P22-70;TPX DX350;72;0.35;4/1;60;;;;15;65;260;270;280;290;290;49.1;50;1325;1375;1600;2080;2050;2125;;135;160;150;15;20;1.1;130;3.03;20.75
06/06/2022;P22-79;PES + MNV;72;0.4;2/1;90;2;500-850;2;18;80;260;275;280;285;290;55;40;2250;2400;2500;2550;2500;2595;22;;;;15;20;1;210;1.55;145
09/06/2022;P22-87;rPET tejidos + rPET;72;0.3;2/1;60;;;60;15;56;250;255;260;265;265;73.9;50;2150;;;2190;2190;2275;16;;;;30;22;1.3;205;1.53;149.1
20/06/2022;P22-95;TPC - ET LG;12;0.5;4/1;178;;;;12;35;215;220;230;240;250;98;70;1300;1499;2801;3052;2739;3050;4;85;100;115;80;20;1.3;120;1.9;88.5
07/07/2022;P22-102;A + rPET 50/50;72;0.3;2/1;90;;;;14;44;250;255;260;265;260;99.2;50;2010;;;2049;2070;;16;;;;30;22;1.3;200;1.48;146.3
13/07/2022;P22-110;ADUANITE S3001;72;0.35;4/1;178;;;;21;39;240;250;260;260;265;91.6;65;900;1100;2700;2975;2850;2945;;75;89;100;45;18;1.3;205;3.02;27.8
27/07/2022;P22-117;20180 rPETD/rPET;48;0.3;2/1;90;;;;24;51;260;265;270;270;275;37.2;50;2690;;;2710;2710;2800;;;;;50;20;;270;1.6;133
07/09/2022;P22-124;rPET DEC + rPET;36;0.3;2/1;90;4;355-500;2;8.5;38;260;;;;280;64;60;2880;;;2900;2900;3000;18;;;;30;10;1.15;90;1.67;119.7
11/10/2022;P22-132;PP + 07%Amarillo + 2%UV 792930;72;0.4;4/1;60;;;;16;37;220;230;240;245;260;43.5;60;802;949;1951;2201;2083;2180;19;65;80;120;80;16;2.1;140;3.23;77.33
08/11/2022;P22-139;rPET;72;0.3;2/1;90;3;355-500;2;14;44;265;275;280;285;390;110.3;70;2690;;;2710;2730;2800;;;;;30;18;1.3;145;2.3;104
29/11/2022;P22-146;rPET DECATHLON;36;0.3;2/1;90;4;355-500;2;14;54;250;260;265;265;260;171;60;2866;;;2900;2900;3000;;;;;40;20;1.5;135;1.6;118.8
19/12/2022;P22-153;PEF 75:25 (0560:0491);48;0.4;2/1;90;6;355-500;178;30.5;52;240;250;255;265;270;217;50;3390;;;3414;3405;3500;21;;;;50;16;1.6;290;2.31;131.4
21/12/2022;P22-160;PET + PEF;48;0.4;2/1;90;1;355-500;;12;45;275;285;290;290;290;230;80;2900;650;1750;2910;2895;2995;13;120;130;140;50;15;1.6;125;3.08;94.44
18/01/2023;P23-06;PE PURELL GA7760 + 4% Aditivo;72;0.4;4/1;105;2;500-850;2;33;44;200;200;200;200;205;347;60;500;720;1000;1100;1052;1050;2;60;40;;80;30;2.1;460;0.71;371
02/02/2023;P23-15;NEGOMBO WHITE 30% + rPET 70%;36;0.3;2/1;90;3;500-850;178;13;45;270;275;280;275;280;203;60;2876;;;2925;2930;3031;;;;;40;16;1.5;130;2.08;115
08/02/2023;P23-23;BATCH 2;72;0.3;2/1;90;1;355-500;2;13;46;280;290;295;300;300;139;95;2880;;;2915;2900;3000;18;;;;40;20;1.3;130;2.3;130
01/03/2023;P23-32;NEGOMBO BLACK 30% + rPET 70%;72;0.3;2/1;90;3;355-500;178;13;46;268;273;280;275;278;32;60;2851;;;2861;2861;;;;;;20;16;1.5;130;1.78;138.5
14/03/2023;P23-40;TPX 350;48;0.4;4/1;60;2;355-500;2;12;92.6;275;285;290;290;286;32;120;1648;1826;2215;2675;2602;2700;;150;160;140;30;20;1.4;88;2.23;23.6
16/03/2023;P23-47;LLDPE ASPUN (RESINEX);72;0.6;4/1;105;;;;30;53;215;220;225;225;225;145;120;650;670;2350;2700;2375;2475;;50;50;72;85;25;2.3;230;1.84;234
04/05/2023;P23-54;rPET;72;0.3;2/1;90;1;355-500;178;13;79;280;285;290;290;290;104.4;70;2900;;;2915;2895;3000;14;;;;30;20;1.3;130;2.45;111.22
23/05/2023;P23-63;PLA;72;0.3;2/1;90;2;355-500;2;21;45;76;80;230;235;245;250;240;2600;;;2625;2615;2700;;;;;40;18;1.5;210;2.11;85.3
24/05/2023;P23-70;PHB DAN 04493;48;0.4;4/1;90;4;355-500;178;12;23;102;50;170;175;180;185;190;1500;;;1800;1950;2000;;;;;20;20;1.4;178;1.4;51
24/05/2023;P23-78;PHB DAN 04493;48;0.4;4/1;90;4;355-500;178;11.5;26;36;50;170;175;185;190;195;1400;;;1980;2040;2060;;;;;20;20;1.4;170;1.27;43
30/05/2023;P23-86;rPET 30/70;72;0.25;2/1;60;3;355-500;2;20;85;55.5;70;262;270;275;275;275;2800;;;2821;2800;2895;15;;;;50;20;1.5;205;1.66;167
31/05/2023;P23-93;rPET;72;0.3;2/1;60;3;355-500;2;12.6;53;70.8;50;285;300;300;295;290;792;818;1404;2504;2445;2520;;88;130;140;40;18;1.3;150;3.27;27.53
03/07/2023;P23-109;COPET;72;0.25;2/1;60;;;2;14;28;168.7;70;230;235;240;240;240;2201;;;2230;2220;2300;21;;;;35;15;1.05;190;1.32;172
11/07/2023;P23-118;PS 454N;48;0.4;4/1;90;;;;22;50;112.6;106;250;260;265;265;265;1650;1750;1950;2000;1970;2040;22;60;70;100;50;24;1.7;257;0.97;26.98
13/07/2023;P23-125;CORE - TPE;36;0.5;4/1;90;;;;10.5;26;72;90;195;200;205;210;235;352;449;500;548;548;565;;;;;70;16;2.2;685;0.45;458
24/07/2023;P23-135;2QPET;;;;;;;;11.9;38;78.6;60;280;288;292;295;295;2773;;;2783;2778;2885;;;;;40;15;1.3;125;2.45;132.3
08/08/2023;P23-145;TPE Producción;48;0.4;4/1;90;;;;14;23;107.2;70;195;195;200;205;210;2400;;;2425;2450;2540;;;;;35;25;1.8;165;0.78;123.82
07/09/2023;P23-156;ABS H380;72;0.6;4/1;60;;;;26;41;136;135;240;250;260;270;280;1285;1421;1969;1986;1591;1100;;100;105;;60;23;1.25;330;1.03;10
18/09/2023;P23-163;rPET BATCH 1;72;0.3;2/1;90;1;355-500;2;11.9;52;65;75;283;291;295;298;298;2778;;;2800;2778;2885;;;;;35;18;1.5;130;2.25;155
19/09/2023;P23-170;rPET BATCH 2;72;0.3;2/1;90;1;355-500;2;10.5;40;80;60;285;290;295;300;300;2758;;;2802;2778;2885;;;;;50;18;1.5;110;2.5;130
17/10/2023;P23-179;PBS;36;0.3;2/1;90;;;;16;29;181;60;235;245;255;255;260;2630;;;2700;2700;2800;14;;;;75;20;2;150;1.68;175
27/11/2023;P23-188;PLA + 0.1 Silano;72;0.3;2/1;60;3;355-500;2;13;100;0;0;210;212;214;216;220;900;1250;1700;2582;2600;2665;;75;90;75;30;18;1.3;180;1.05;35
29/01/2024;P24-08;Reclado químico VELOR;72;0.35;2/1;60;2;355-500;2;11.9;61;128.7;60;300;305;310;315;320;2700;;;2725;2715;2800;20;;;;10;18;1.25;136;2.33;141
05/02/2024;P24-15;PE ASPUN;72;0.6;4/1;105;;;;25;48.18;27.6;90;235;240;245;245;250;800;900;2700;3052;2915;3005;;50;62;77;45;20;2.1;157;2.1;143
07/02/2024;P24-25;SABIC M200056;72;0.6;4/1;105;2;500-850;2;22.5;35;28.7;36.6;217;220;218;215;220;650;850;2250;2925;2875;2940;10;55;65;75;10;20;1.9;166;2.1;124.33
27/02/2024;P24-36;PP HP 561R;;;;;;;;18;41;84.4;90;215;220;225;230;240;1400;1450;2100;2540;2450;2500;20;45;55;65;40;18;;152;4.25;125.44
24/04/2024;P24-45;rPET;72;0.2;2/1;60;2;355-500;2;14;;150;70;275;;;;290;2809;;;2830;2810;2970;;;;;;;;145;1.71;236
13/05/2024;P24-59;MP1925 + 0.3 TiO2;72;0.3;2/1;90;2;355-500;2;14;45;154.8;111.2;295;300;305;305;305;2780;;;2842;2837;2923;22;;;;10;16;1.6;136;2.62;130.67
13/05/2024;P24-60;MP1925 + 0.3 TiO2;72;0.3;2/1;90;2;355-500;2;14.5;45;169.2;115.4;295;300;305;305;305;2740;;;2778;2758;2840;16;;;;10;16;1.5;148;2.9;147