Folder: DIMAT_DATA_CLEAN_AITEX/src/data

Note: src/data/DENSITY.json
{
  "TPX": {
    "nombre": "Polimetilpenteno",
    "rho_min": 0.83,
    "rho_max": 0.85,
    "referencia": "https://www.mitsuichem.com/service/engineering/tpx.htm"
  },
  "PHB": {
    "nombre": "Polihidroxibutirato",
    "rho_min": 1.23,
    "rho_max": 1.25,
    "referencia": "https://www.biomer.de/en/products/phb.html"
  },
  "PET": {
    "nombre": "Polietileno Tereftalato",
    "rho_min": 1.34,
    "rho_max": 1.40,
    "referencia": "https://material-properties.org/es/pet-densidad-resistencia-punto-de-fusion-conductividad-termica/"
  },
  "PLA": {
    "nombre": "Ácido Poliláctico",
    "rho_min": 1.24,
    "rho_max": 1.25,
    "referencia": "https://www.natureworksllc.com/What-is-Ingeo/General-Material-Properties"
  },
  "PES": {
    "nombre": "Poliéter Sulfona",
    "rho_min": 1.37,
    "rho_max": 1.38,
    "referencia": "https://www.ensingerplastics.com/en-us/shapes/materials/polysulfone"
  },
  "PP": {
    "nombre": "Polipropileno",
    "rho_min": 0.90,
    "rho_max": 0.91,
    "referencia": "http://www.matweb.com/search/datasheet.aspx?matguid=8b8e0b0e7e1f4e3b8e0b0e7e1f4e3b8e"
  },
  "TPE": {
    "nombre": "Elastómero Termoplástico",
    "rho_min": 0.90,
    "rho_max": 1.20,
    "referencia": "https://www.rtpcompany.com/products/elastomers/"
  },
  "PE": {
    "nombre": "Polietileno",
    "rho_min": 0.91,
    "rho_max": 0.96,
    "referencia": "https://mecyplastec.es/densidad-del-polietileno-guia-completa-sobre-sus-propiedades/"
  },
  "PA": {
    "nombre": "Poliamida",
    "rho_min": 1.13,
    "rho_max": 1.15,
    "referencia": "https://www.dupont.com/products/zytel-nylon-resin.html"
  },
  "PBT": {
    "nombre": "Polibutileno Tereftalato",
    "rho_min": 1.31,
    "rho_max": 1.32,
    "referencia": "https://www.polyplastics.com/en/product/lines/pbt/index.html"
  }
}

File: AITEX_01.csv
Material,Nº holes / Nº filaments,Diameter (mm),L/D,Filter (um),Sand quantity (cm),Support,Vpump (rpm),Vext (rpm),TE1 (°C),TE2 (°C),TE3 (°C),TE4 (°C),TD(°C),PD(bar),PE(bar),VTO (m/min),VG1(m/min),VG2(m/min),VG3(m/min),VG4(m/min),Vwinder (m/min),Winder tension (N),Tg1(°C),Tg2(°C),Tg3(°C),Quench (%),Spin. F (rmp),Height (m),Count (dtex),Tenacity (g/den),Elongation (%),Sand size min (um),Sand size max (um)
COPET GP001-EASTMAN,36.0,0.4,4.0,60.0,0.0,4.0,10.0,23.9,280.0,285.0,285.0,290.0,295.0,95.2,69.1,968.0,1005.0,1701.0,1751,1780,1845.0,,85.0,110.0,110.0,20.0,24.0,1.4,155,0.54,44.94,0.0,0.0
PET + 3% Antivirico SUKANO,72.0,0.3,2.0,34.0,3.0,2.0,18.0,58.4,275.0,280.0,285.0,285.0,290.0,87.8,75.0,2695.0,2765.0,2765.0,2695,2695,2780.0,16.0,,,,24.0,20.0,1.5,200,2.37,97.11,500.0,355.0
PP HS61R,12.0,0.5,4.0,,0.0,2.0,27.0,44.0,195.0,195.0,200.0,200.0,200.0,0.0,75.0,1252.0,1549.0,1900.0,1991,1971,2000.0,25.0,,,,60.0,22.0,2.25,290,1.68,223.5,0.0,0.0
PP 561R,72.0,0.35,4.0,178.0,0.0,,35.0,63.0,190.0,200.0,210.0,210.0,210.0,16.0,75.0,1800.0,2489.0,2501.0,2661,2558,2595.0,,,,,60.0,22.0,1.5,290,2.36,166.5,0.0,0.0
PP H561R,12.0,0.5,4.0,60.0,0.0,2.0,31.0,66.0,210.0,220.0,225.0,225.0,220.0,27.5,70.0,1252.0,2099.0,2349.0,2661,2558,2590.0,24.0,,,,95.0,24.0,2.25,240,1.99,117.28,800.0,300.0
PA6 PENTABATC,36.0,0.4,4.0,60.0,0.0,,24.0,70.0,250.0,260.0,260.0,260.0,260.0,13.5,86.5,2800.0,2960.0,3000.0,3050,3060,3160.0,11.0,65.0,65.0,,35.0,25.0,1.4,190,3.97,83.11,0.0,0.0
PET + Avanza O 0.3.%,72.0,0.3,2.0,60.0,0.0,,24.0,69.6,275.0,285.0,285.0,285.0,285.0,9.5,70.0,2560.0,2660.0,2665.0,2600,2600,2670.0,20.0,,,,20.0,24.0,1.35,257,1.9,94.5,0.0,0.0
PP H561R,36.0,0.35,4.0,60.0,0.0,,29.0,64.0,220.0,230.0,235.0,235.0,230.0,54.0,75.0,1252.0,2099.0,2349.0,2680,2548,2580.0,,,,,60.0,22.0,2.25,240,3.23,141.33,0.0,0.0
PLA LUMINY L130,72.0,0.3,2.0,60.0,3.0,2.0,27.0,49.0,225.0,215.0,220.0,230.0,235.0,27.0,75.0,2620.0,2750.0,2820.0,2950,2930,3010.0,24.0,,,,70.0,20.0,1.3,250,2.18,53.63,500.0,355.0
PP HS61R,48.0,0.2,,60.0,0.0,,35.0,70.0,215.0,225.0,235.0,240.0,350.0,0.0,80.0,1149.0,1225.0,1799.0,2494,2348,2440.0,,60.0,80.0,90.0,80.0,25.0,2.4,300,3.27,86.67,0.0,0.0
PBT + 15% SPH16W,72.0,0.35,4.0,60.0,2.0,2.0,14.0,50.0,245.0,250.0,255.0,260.0,265.0,41.0,70.0,1100.0,1249.0,2700.0,2700,2641,2720.0,,75.0,85.0,115.0,25.0,22.0,1.3,158,3.0,22.72,500.0,355.0
TPX,72.0,0.4,4.0,60.0,0.0,,18.0,70.0,265.0,270.0,275.0,280.0,290.0,47.0,50.0,2152.0,2251.0,2284.0,2230,2211,2285.0,,,,,40.0,20.0,1.1,158,1.3,22.5,0.0,0.0
PA H24,48.0,0.4,4.0,60.0,0.0,,12.0,80.0,255.0,260.0,265.0,256.0,275.0,90.0,55.0,1800.0,1751.0,2001.0,2440,2406,2500.0,,,,,45.0,12.0,1.3,130,3.52,76.06,0.0,0.0
100%MB SP16H,72.0,0.35,4.0,60.0,2.0,2.0,12.8,46.0,260.0,265.0,270.0,275.0,275.0,56.6,75.0,2200.0,2300.0,2450.0,2505,2500,2560.0,15.0,,,,15.0,20.0,1.2,145,1.53,112.0,500.0,355.0
Pruebas PP Amarilleamiento,72.0,0.6,4.0,178.0,0.0,,36.0,94.32,240.0,260.0,275.0,280.0,280.0,32.1,66.1,523.0,550.0,1600.0,1960,1910,1980.0,,70.0,135.0,125.0,60.0,12.0,2.1,340,3.17,61.0,0.0,0.0
rPET 2% HIPS,75.0,0.3,2.0,90.0,0.0,,25.2,63.0,275.0,285.0,285.0,285.0,295.0,115.7,60.0,700.0,750.0,1300.0,2515,2485,2565.0,,85.0,100.0,130.0,30.0,18.0,1.3,300,2.52,27.2,0.0,0.0
PHB 2450 mod,48.0,0.4,4.0,90.0,4.0,2.0,4.0,53.0,165.0,170.0,175.0,185.0,185.0,0.0,50.0,500.0,540.0,560.0,580,580,600.0,20.0,,,,20.0,11.0,1.3,235,0.48,80.0,855.0,500.0
TCP - ET,12.0,0.5,4.0,178.0,0.0,,10.0,30.5,210.0,220.0,230.0,240.0,240.0,120.0,60.0,800.0,850.0,865.0,900,935,985.0,,,,,80.0,18.0,2.3,270,0.8,330.0,0.0,0.0
TPX,72.0,0.4,4.0,60.0,0.0,,12.5,68.0,275.0,285.0,285.0,290.0,288.0,52.9,50.0,1160.0,1300.0,1450.0,1750,1735,1775.0,,140.0,160.0,145.0,15.0,18.0,1.15,130,1.7,17.0,0.0,0.0
TPX DX350,72.0,0.35,4.0,60.0,0.0,,15.0,65.0,260.0,270.0,280.0,290.0,295.0,49.1,50.0,1290.0,1375.0,1600.0,2080,2050,2125.0,,135.0,160.0,150.0,15.0,20.0,1.1,130,2.75,21.67,0.0,0.0
PES + MNV,72.0,0.4,2.0,90.0,2.0,2.0,21.0,75.0,255.0,265.0,270.0,280.0,285.0,49.0,40.0,2250.0,2400.0,2500.0,2550,2500,2595.0,22.0,,,,15.0,20.0,1.0,250,1.66,157.0,850.0,500.0
rPET tejidos + rPET,72.0,0.3,2.0,60.0,0.0,60.0,18.0,55.0,250.0,255.0,260.0,265.0,265.0,84.0,50.0,2890.0,,,2910,2905,3000.0,16.0,,,,30.0,24.0,1.3,187,1.76,111.0,0.0,0.0
TPC - ET LG,12.0,0.5,4.0,178.0,0.0,,12.0,35.0,215.0,220.0,230.0,240.0,250.0,99.0,70.0,1700.0,1799.0,3000.0,3399,3199,3360.0,3.0,85.0,100.0,115.0,80.0,20.0,1.3,105,1.77,104.2,0.0,0.0
A + rPET 50/50,72.0,0.3,2.0,90.0,0.0,,14.0,53.0,250.0,255.0,260.0,265.0,260.0,105.0,50.0,2308.0,,,2348,2318,,16.0,,,,30.0,24.0,1.3,175,1.63,131.8,0.0,0.0
ADUANITE S3001,72.0,0.35,4.0,178.0,0.0,,21.0,43.0,255.0,260.0,265.0,270.0,270.0,76.5,65.0,900.0,1100.0,2700.0,2975,2850,2945.0,,75.0,89.0,100.0,45.0,18.0,1.3,200,2.74,32.2,0.0,0.0
20180 rPETD/rPET,48.0,0.3,2.0,90.0,0.0,,22.0,51.0,260.0,265.0,270.0,270.0,275.0,33.5,50.0,2690.0,,,2710,2710,2800.0,,,,,30.0,20.0,,240,1.81,142.0,0.0,0.0
rPET DEC + rPET (50%/50%),36.0,0.3,2.0,90.0,4.0,2.0,12.0,30.0,250.0,260.0,265.0,265.0,260.0,96.0,60.0,2866.0,,,2900,2900,3000.0,,,,,50.0,20.0,1.8,120,1.34,143.0,500.0,355.0
PP + 07%Amarillo + 2%UV 792930,72.0,0.4,4.0,60.0,0.0,,16.0,37.0,220.0,230.0,240.0,245.0,260.0,43.5,60.0,602.0,749.0,1951.0,2201,2093,2180.0,19.0,65.0,80.0,120.0,80.0,16.0,2.1,140,3.44,67.44,0.0,0.0
rPET,72.0,0.3,2.0,90.0,3.0,2.0,13.0,49.0,265.0,275.0,280.0,285.0,390.0,100.8,70.0,2690.0,,,2710,2730,2800.0,,,,,30.0,18.0,1.3,137,2.4,120.0,500.0,355.0
rPET 50/50,36.0,0.3,2.0,90.0,3.0,2.0,14.0,62.0,260.0,265.0,270.0,270.0,270.0,91.8,60.0,2866.0,,,2900,2900,3000.0,,,,,60.0,20.0,1.55,140,1.45,130.8,500.0,355.0
PEF 75:25 (0560:0491),48.0,0.4,2.0,90.0,6.0,178.0,35.0,36.0,240.0,250.0,255.0,270.0,275.0,201.0,50.0,3890.0,,,3895,3885,4000.0,21.0,,,,70.0,16.0,1.6,295,2.31,108.3,500.0,355.0
PET + PEF,48.0,0.4,2.0,90.0,1.0,,13.0,35.0,275.0,285.0,290.0,290.0,290.0,230.0,80.0,2900.0,650.0,1750.0,2910,2895,2995.0,13.0,120.0,130.0,140.0,50.0,15.0,1.6,135,2.9,93.5,500.0,355.0
PE PURELL GA7760 + 4% Aditivo,72.0,0.6,4.0,105.0,2.0,2.0,42.0,57.0,200.0,200.0,200.0,200.0,205.0,336.0,60.0,550.0,800.0,1900.0,2200,2150,2180.0,2.0,60.0,50.0,50.0,100.0,30.0,2.1,415,1.47,147.0,850.0,500.0
NEGOMBO WHITE 30% + rPET 70%,36.0,0.3,2.0,90.0,3.0,178.0,13.0,45.0,275.0,278.0,280.0,285.0,285.0,167.0,60.0,2876.0,,,2949,2974,3045.0,,,,,40.0,16.0,1.5,130,2.02,130.0,850.0,500.0
BATCH 2,72.0,0.3,2.0,90.0,1.0,2.0,13.0,46.0,280.0,290.0,295.0,300.0,300.0,139.0,95.0,2900.0,,,2930,2895,3000.0,18.0,,,,30.0,20.0,1.3,130,2.3,133.0,500.0,355.0
NEGOMBO BLACK 30% + rPET 70%,72.0,0.3,2.0,90.0,3.0,178.0,13.0,46.0,268.0,273.0,280.0,275.0,278.0,29.0,60.0,3101.0,,,3125,3125,3230.0,,,,,30.0,16.0,1.5,123,1.72,123.0,500.0,355.0
TPX 350,48.0,0.4,4.0,60.0,2.0,2.0,9.5,87.0,275.0,285.0,290.0,290.0,288.0,17.1,120.0,980.0,1124.0,1695.0,2108,2045,2134.0,,160.0,160.0,150.0,15.0,18.0,1.4,91,3.42,27.5,500.0,355.0
LLDPE ASPUN (RESINEX),72.0,0.6,4.0,105.0,0.0,,22.0,53.0,215.0,220.0,225.0,225.0,225.0,190.0,140.0,650.0,699.0,2200.0,2500,2450,2520.0,,50.0,62.0,77.0,5.0,20.0,2.3,170,1.81,196.0,0.0,0.0
PLA,72.0,0.3,2.0,90.0,2.0,2.0,28.8,48.0,98.3,80.0,225.0,230.0,240.0,245.0,240.0,2950.0,,,3100,3100,3080.0,,,,,40.0,20.0,1.5,260,2.1,65.67,500.0,355.0
PHB DAN 04493,48.0,0.4,4.0,90.0,4.0,178.0,15.0,22.0,188.0,50.0,165.0,170.0,175.0,180.0,185.0,2100.0,,,2150,2123,2000.0,,,,,40.0,20.0,1.55,200,0.93,58.4,500.0,355.0
PHB DAN 04493,48.0,0.4,4.0,90.0,4.0,178.0,11.5,23.0,40.0,50.0,170.0,175.0,180.0,185.0,190.0,1400.0,,,1800,1950,2000.0,,,,,20.0,20.0,1.4,160,1.49,46.0,500.0,355.0
PHB DAN 04493,48.0,0.4,4.0,90.0,4.0,178.0,11.5,23.0,54.0,50.0,170.0,175.0,180.0,185.0,195.0,1400.0,,,1800,1950,2000.0,,,,,20.0,20.0,1.4,167,1.24,41.0,500.0,355.0
rPET 30/70,72.0,0.25,2.0,60.0,3.0,2.0,19.2,80.0,57.3,70.0,260.0,270.0,275.0,275.0,275.0,2600.0,,,2617,2602,2695.0,15.0,,,,40.0,20.0,1.5,210,1.61,186.5,500.0,355.0
PLA + 0.1 Silano,48.0,0.4,2.0,60.0,1.0,178.0,13.0,73.0,0.0,40.0,225.0,225.0,225.0,230.0,230.0,900.0,1026.0,1799.0,2626,2651,2730.0,15.0,78.0,95.0,96.0,15.0,18.0,1.2,147,1.62,35.87,500.0,355.0
COPET,72.0,0.25,2.0,60.0,0.0,2.0,14.0,28.0,172.0,70.0,230.0,235.0,240.0,240.0,240.0,2900.0,,,2930,2920,3010.0,10.0,,,,35.0,18.0,1.05,145,1.85,133.58,0.0,0.0
ADVANITE 53001,72.0,0.35,4.0,178.0,0.0,,20.0,40.0,148.0,90.0,255.0,260.0,265.0,270.0,270.0,900.0,1100.0,2700.0,2975,2850,2955.0,,76.0,80.0,100.0,30.0,18.0,1.3,190,2.84,35.42,0.0,0.0
rPET,72.0,0.3,2.0,90.0,1.0,2.0,10.0,35.0,62.0,60.0,280.0,283.0,287.0,290.0,290.0,2250.0,,,2264,2250,2325.0,,,,,45.0,12.0,1.4,130,2.27,140.0,500.0,355.0
TPE Producción,48.0,0.4,4.0,90.0,0.0,,14.0,23.0,107.2,70.0,195.0,195.0,200.0,205.0,210.0,2400.0,,,2425,2450,2540.0,,,,,35.0,25.0,1.8,165,0.78,123.82,0.0,0.0
ABS H380,72.0,0.6,4.0,60.0,0.0,,26.0,41.0,136.0,135.0,240.0,250.0,260.0,270.0,280.0,1285.0,1421.0,1969.0,1986,1591,1100.0,,100.0,105.0,,60.0,23.0,1.25,330,1.03,10.0,0.0,0.0
rPET BATCH 1,72.0,0.3,2.0,90.0,1.0,2.0,11.9,52.0,65.0,75.0,283.0,291.0,295.0,298.0,298.0,2778.0,,,2800,2778,2885.0,,,,,35.0,18.0,1.5,130,2.25,155.0,500.0,355.0
rPET BATCH 2,72.0,0.3,2.0,90.0,1.0,2.0,10.5,40.0,80.0,60.0,285.0,290.0,295.0,300.0,300.0,2758.0,,,2802,2778,2885.0,,,,,50.0,18.0,1.5,110,2.5,130.0,500.0,355.0
PBS,36.0,0.3,2.0,90.0,0.0,,16.0,29.0,181.0,60.0,235.0,245.0,255.0,255.0,260.0,2630.0,,,2700,2700,2800.0,14.0,,,,75.0,20.0,2.0,150,1.68,175.0,0.0,0.0
PLA + 0.1 Silano,72.0,0.3,2.0,60.0,3.0,2.0,13.0,100.0,0.0,0.0,210.0,212.0,214.0,216.0,220.0,900.0,1250.0,1700.0,2582,2600,2665.0,,75.0,90.0,75.0,30.0,18.0,1.3,180,1.05,35.0,500.0,355.0
Reclado químico VELOR,72.0,0.35,2.0,60.0,2.0,2.0,11.9,61.0,128.7,60.0,300.0,305.0,310.0,315.0,320.0,2700.0,,,2725,2715,2800.0,20.0,,,,10.0,18.0,1.25,136,2.33,141.0,500.0,355.0
PE ASPUN,72.0,0.6,4.0,105.0,0.0,,25.0,48.18,27.6,90.0,235.0,240.0,245.0,245.0,250.0,800.0,900.0,2700.0,3052,2915,3005.0,,50.0,62.0,77.0,45.0,20.0,2.1,157,2.1,143.0,0.0,0.0
SABIC M200056,72.0,0.6,4.0,105.0,2.0,2.0,22.5,35.0,28.7,36.6,217.0,220.0,218.0,215.0,220.0,650.0,850.0,2250.0,2925,2875,2940.0,10.0,55.0,65.0,75.0,10.0,20.0,1.9,166,2.1,124.33,850.0,500.0
PLA + CaCO3,72.0,0.3,2.0,90.0,2.0,2.0,19.0,42.0,52.0,70.0,225.0,230.0,235.0,240.0,240.0,2500.0,,,2520,2520,2600.0,,,,,40.0,20.0,1.65,230,2.05,85.0,500.0,355.0
PLA + CaCO3,72.0,0.3,2.0,90.0,2.0,2.0,19.5,43.0,50.0,70.0,225.0,230.0,235.0,240.0,240.0,2530.0,,,2550,2550,2630.0,,,,,40.0,20.0,1.65,220,1.7,95.0,500.0,355.0
MP1925 + 0.3 TiO2,72.0,0.3,2.0,90.0,2.0,2.0,14.5,45.0,169.2,115.4,295.0,300.0,305.0,305.0,305.0,2740.0,,,2778,2758,2840.0,16.0,,,,10.0,16.0,1.5,148,2.9,147.0,500.0,355.0

File: AITEX_02.csv
Material,Nº holes / Nº filaments,Diameter (mm),L/D,Filter (um),Sand quantity (cm),Support,Vpump (rpm),Vext (rpm),TE1 (°C),TE2 (°C),TE3 (°C),TE4 (°C),TD(°C),PD(bar),PE(bar),VTO (m/min),VG1(m/min),VG2(m/min),VG3(m/min),VG4(m/min),Vwinder (m/min),Winder tension (N),Tg1(°C),Tg2(°C),Tg3(°C),Quench (%),Spin. F (rmp),Height (m),Count (dtex),Tenacity (g/den),Elongation (%),Sand size min (um),Sand size max (um)
COPET GP001-EASTMAN,36.0,0.4,4.0,60.0,0.0,4.0,10.0,23.9,280.0,285.0,285.0,290.0,295.0,95.2,69.1,968.0,1005.0,1701.0,1751,1780,1845.0,,85.0,110.0,110.0,20.0,24.0,1.4,155,0.54,44.94,0.0,0.0
PET + 3% Antivirico SUKANO,72.0,0.3,2.0,60.0,3.0,2.0,20.0,58.94,270.0,280.0,284.0,285.0,285.0,91.3,76.8,2695.0,2765.0,2765.0,2695,2695,2790.0,16.0,100.443,116.283,129.319,20.0,24.0,1.4,215,2.37,101.72,500.0,355.0
PP HS61R,12.0,0.5,4.0,,0.0,2.0,30.0,44.0,195.0,195.0,200.0,200.0,200.0,0.0,75.0,1252.0,1951.0,2450.0,2651,2558,2595.0,25.0,,,,60.0,22.0,2.25,240,1.83,62.83,0.0,0.0
PP H561R,36.0,0.35,4.0,178.0,0.0,,29.0,58.0,190.0,200.0,210.0,210.0,210.0,0.0,75.0,1852.0,2099.0,2349.0,2680,2548,2580.0,,66.7677,69.5113,96.6904,70.0,22.0,2.25,240,3.05,122.75,0.0,0.0
PA B33L,36.0,0.4,4.0,34.0,0.0,,23.0,38.0,255.0,265.0,275.0,275.0,280.0,105.0,75.0,2925.0,3000.0,3000.0,2990,2925,3020.0,10.0,106.823,120.934,128.232,70.0,25.0,1.4,200,2.88,80.56,0.0,0.0
PA6 B27,36.0,0.4,4.0,60.0,0.0,,25.0,61.48,265.0,275.0,280.0,275.0,270.0,87.7,86.9,2700.0,2959.0,2994.0,3218,3233,3315.0,27.0,104.926,131.34,125.805,50.0,30.0,1.4,200,3.64,74.4,0.0,0.0
PA B33L,36.0,0.3,2.0,60.0,2.0,2.0,6.0,50.0,285.0,295.0,300.0,295.0,285.0,88.0,51.0,582.0,809.0,1505.0,2196,2191,2240.0,,75.0,102.0,140.0,40.0,10.0,1.3,160,4.38,43.83,800.0,500.0
PLA LUMINY L130,72.0,0.3,2.0,60.0,3.0,2.0,27.0,49.0,225.0,215.0,220.0,230.0,235.0,27.0,75.0,2620.0,2750.0,2820.0,2950,2930,3010.0,24.0,56.7043,89.6848,93.9427,70.0,20.0,1.3,250,2.18,53.63,500.0,355.0
PP HS61R,48.0,0.2,,60.0,0.0,,28.0,73.0,215.0,225.0,235.0,240.0,350.0,0.0,80.0,1149.0,1225.0,1799.0,2494,2348,2440.0,,60.0,80.0,90.0,80.0,25.0,2.4,240,3.58,90.49,0.0,0.0
PBT + 3% Octil,72.0,0.35,4.0,60.0,2.0,2.0,13.0,32.0,260.0,270.0,275.0,275.0,275.0,38.4,70.0,2450.0,2525.0,2550.0,2490,2499,2580.0,12.0,100.752,125.011,120.563,10.0,20.0,1.2,142,0.8,90.5,500.0,355.0
TPX,72.0,0.4,4.0,60.0,0.0,,14.0,75.0,270.0,280.0,285.0,290.0,295.0,29.0,50.0,783.0,900.0,1499.0,2201,2171,2245.0,,120.0,160.0,145.0,40.0,16.0,1.1,130,4.26,26.28,0.0,0.0
ADUANITE S3001,72.0,0.3,2.0,178.0,0.0,,21.0,47.0,250.0,260.0,265.0,270.0,270.0,100.0,65.0,800.0,980.0,2700.0,2950,2940,3050.0,,70.0,85.0,100.0,45.0,20.0,1.3,195,2.94,31.17,0.0,0.0
PP + Talco + Verde,72.0,0.35,4.0,60.0,2.0,2.0,20.1,53.0,200.0,210.0,225.0,230.0,230.0,103.0,65.0,750.0,900.0,1550.0,1960,1950,2010.0,22.0,70.0,80.0,80.0,90.0,17.0,2.25,220,1.16,100.78,500.0,355.0
rPET,75.0,0.3,2.0,90.0,0.0,,25.0,62.0,270.0,280.0,290.0,290.0,295.0,115.4,65.0,700.0,750.0,1500.0,2515,2485,2565.0,,85.0,100.0,130.0,30.0,18.0,1.3,290,2.9,27.0,0.0,0.0
PHB 2450 mod,48.0,0.4,4.0,90.0,4.0,2.0,4.0,53.0,165.0,170.0,175.0,185.0,185.0,0.0,50.0,500.0,540.0,560.0,580,580,600.0,20.0,20.5664,37.649,49.9074,20.0,11.0,1.3,235,0.48,80.0,855.0,500.0
TCP - ET,12.0,0.5,4.0,178.0,0.0,,14.0,34.0,210.0,220.0,230.0,240.0,250.0,163.0,60.0,1950.0,850.0,865.0,1965,1981,2060.0,,71.1809,68.863,92.8175,80.0,18.0,2.3,180,1.16,261.0,0.0,0.0
TPX,72.0,0.4,4.0,60.0,0.0,,14.5,69.0,270.0,275.0,285.0,290.0,300.0,53.0,50.0,1150.0,1350.0,1600.0,2100,2050,2120.0,,125.0,150.0,140.0,15.0,20.0,1.1,130,2.7,21.83,0.0,0.0
PHB 2450 mod,48.0,0.4,4.0,90.0,0.0,,8.0,50.0,165.0,170.0,175.0,185.0,185.0,5.7,50.0,850.0,,,955,970,1000.0,,21.6532,52.3081,59.0886,20.0,18.0,1.3,230,0.98,80.0,0.0,0.0
PP + FR,72.0,0.4,4.0,90.0,0.0,,16.0,80.0,210.0,230.0,240.0,245.0,250.0,32.7,40.0,800.0,950.0,2150.0,2200,2040,2135.0,10.0,65.0,80.0,110.0,80.0,20.0,2.2,150,2.9,87.0,0.0,0.0
TPC - ET LG,12.0,0.5,4.0,178.0,0.0,,12.0,35.0,215.0,220.0,230.0,240.0,250.0,95.0,70.0,1250.0,1500.0,2650.0,2750,2450,2710.0,4.0,85.0,100.0,115.0,80.0,20.0,1.3,130,1.56,104.0,0.0,0.0
A + rPET 50/50,72.0,0.3,2.0,90.0,0.0,,14.0,44.0,250.0,255.0,260.0,265.0,260.0,99.2,50.0,2010.0,,,2049,2070,,16.0,,,,30.0,22.0,1.3,200,1.48,146.3,0.0,0.0
ADUANITE S3001,72.0,0.35,4.0,178.0,0.0,,21.0,43.0,255.0,260.0,265.0,270.0,270.0,76.5,65.0,900.0,1100.0,2700.0,2975,2850,2945.0,,75.0,89.0,100.0,45.0,18.0,1.3,200,2.74,32.2,0.0,0.0
20180 rPETD/rPET,48.0,0.3,2.0,90.0,0.0,,20.0,51.0,260.0,265.0,270.0,270.0,275.0,49.6,50.0,2500.0,,,2520,2514,2600.0,,80.9525,106.107,112.462,30.0,20.0,,240,1.62,149.0,0.0,0.0
PHB DANIMER,96.0,0.3,2.0,30.0,1.0,2.0,19.5,28.0,165.0,180.0,190.0,200.0,200.0,106.0,70.0,2100.0,2224.0,2700.0,2827,2763,2840.0,15.0,45.0,80.0,72.0,30.0,18.0,1.3,180,1.55,32.0,500.0,355.0
PP + 07%Rojo + 2%UV 792930 + 4% FR LXR935,72.0,0.4,4.0,60.0,0.0,,16.5,55.0,220.0,230.0,240.0,245.0,260.0,50.0,60.0,602.0,749.0,1951.0,2201,2083,2165.0,19.0,65.0,80.0,120.0,80.0,16.0,2.1,140,3.37,76.4,0.0,0.0
TPE + 10% Plastificante,48.0,0.4,4.0,90.0,0.0,,14.0,33.0,190.0,195.0,200.0,205.0,210.0,28.0,70.0,2401.0,,,2401,2436,2520.0,,52.9184,73.3698,83.2077,40.0,23.0,1.3,170,0.64,130.0,0.0,0.0
PEF 75:25 (0560:0491),48.0,0.4,2.0,90.0,6.0,178.0,26.5,50.0,240.0,250.0,255.0,260.0,265.0,222.0,50.0,2886.0,,,2910,2895,2990.0,21.0,83.2075,111.256,115.542,40.0,15.0,1.5,295,2.15,142.0,500.0,355.0
PET + PEF,48.0,0.4,2.0,90.0,1.0,,12.0,45.0,275.0,285.0,290.0,290.0,290.0,230.0,80.0,2900.0,650.0,1750.0,2910,2895,2995.0,13.0,120.0,130.0,140.0,50.0,15.0,1.6,125,3.08,94.44,500.0,355.0
PE PURELL GA7760 + 4% Aditivo,72.0,0.6,4.0,105.0,2.0,2.0,42.0,57.0,200.0,200.0,200.0,200.0,205.0,336.0,60.0,550.0,800.0,1900.0,2200,2150,2180.0,2.0,60.0,50.0,50.0,100.0,30.0,2.1,415,1.47,147.0,850.0,500.0
BATCH 2,36.0,0.3,2.0,90.0,3.0,2.0,14.0,40.0,275.0,280.0,290.0,295.0,298.0,200.0,75.0,2949.0,,,2978,2964,3065.0,20.0,122.734,144.095,142.263,40.0,16.0,1.5,140,2.15,129.0,500.0,355.0
TPX DX350,48.0,0.4,4.0,60.0,0.0,,10.21,53.0,275.0,285.0,290.0,290.0,285.0,37.0,80.0,1600.0,1650.0,1960.0,2350,2250,2330.0,,135.0,160.0,140.0,30.0,15.0,1.4,88,2.05,22.0,0.0,0.0
rPET,72.0,0.4,2.0,90.0,3.0,2.0,22.0,43.0,285.0,295.0,300.0,300.0,297.0,243.0,100.0,3037.0,,,3057,3027,3130.0,,108.068,123.016,134.6,50.0,24.0,,210,2.43,105.0,500.0,355.0
LLDPE ASPUN (RESINEX),72.0,0.6,4.0,105.0,0.0,,30.0,53.0,215.0,220.0,225.0,225.0,225.0,145.0,120.0,641.0,670.0,2350.0,2602,2274,2370.0,,50.0,50.0,72.0,85.0,25.0,2.3,240,1.72,250.0,0.0,0.0
rPET,72.0,0.3,2.0,90.0,1.0,178.0,13.0,79.0,280.0,285.0,290.0,290.0,290.0,104.4,70.0,2900.0,,,2915,2895,3000.0,14.0,121.003,147.641,143.195,30.0,20.0,1.3,130,2.45,111.22,500.0,355.0
PHB DAN 04493,48.0,0.4,4.0,90.0,4.0,178.0,12.0,20.0,90.0,50.0,165.0,170.0,175.0,180.0,185.0,1500.0,,,1800,1950,2000.0,,37.0081,64.1635,64.9807,30.0,20.0,1.4,165,1.28,55.6,500.0,355.0
PHB DAN 04493,48.0,0.4,4.0,90.0,4.0,178.0,11.5,23.0,40.0,50.0,170.0,175.0,180.0,185.0,190.0,1400.0,,,1800,1950,2000.0,,38.056,59.5976,68.1234,20.0,20.0,1.4,160,1.49,46.0,500.0,355.0
PHB DAN 04493,48.0,0.4,4.0,90.0,4.0,178.0,11.5,23.0,35.8,50.0,170.0,175.0,180.0,185.0,195.0,1400.0,,,1800,1950,2000.0,,38.1463,61.1077,64.3296,30.0,25.0,1.4,174,1.3,42.0,500.0,355.0
rPET,72.0,0.3,2.0,60.0,3.0,2.0,14.8,48.0,88.6,70.0,275.0,280.0,285.0,290.0,290.0,768.0,821.0,1374.0,2514,2485,2555.0,,89.0,97.0,115.0,40.0,18.0,1.3,175,3.45,37.61,500.0,355.0
rPET,72.0,0.2,2.0,90.0,1.0,2.0,11.9,59.0,100.6,105.0,280.0,288.0,292.0,295.0,295.0,2773.0,,,2783,2778,2885.0,15.0,111.847,170.429,144.197,35.0,15.0,1.3,128,2.42,136.32,500.0,355.0
PS 454N,48.0,0.4,4.0,90.0,0.0,,22.0,50.0,112.6,106.0,250.0,260.0,265.0,265.0,265.0,1650.0,1750.0,1950.0,2000,1970,2040.0,22.0,60.0,70.0,100.0,50.0,24.0,1.7,257,0.97,26.98,0.0,0.0
rPET,72.0,0.3,2.0,90.0,1.0,2.0,11.9,38.0,76.0,60.0,280.0,283.0,287.0,290.0,290.0,2250.0,,,2264,2250,2325.0,,98.5424,142.613,125.98,45.0,12.0,1.4,150,2.37,148.0,500.0,355.0
TPX + Negro,48.0,0.4,4.0,60.0,2.0,2.0,9.0,58.0,101.0,108.0,280.0,285.0,290.0,290.0,286.0,1325.0,1421.0,1659.0,2098,2000,2070.0,,155.0,201.0,155.0,50.0,19.0,1.3,134,2.22,27.3,500.0,355.0
ABS H380,72.0,0.6,4.0,60.0,0.0,,26.0,41.0,136.0,135.0,240.0,250.0,260.0,270.0,280.0,1285.0,1421.0,1969.0,1986,1591,1100.0,,42.6917,57.9714,82.3312,60.0,23.0,1.25,330,1.03,10.0,0.0,0.0
rPET BATCH 1,72.0,0.3,2.0,90.0,1.0,2.0,11.7,59.0,61.0,80.0,283.0,291.0,295.0,298.0,298.0,2778.0,,,2800,2778,2885.0,,110.666,173.543,137.379,35.0,18.0,1.5,130,2.0,150.0,500.0,355.0
rPET BATCH 3,72.0,0.3,2.0,90.0,4.0,2.0,10.0,47.0,87.0,75.0,282.0,288.0,292.0,295.0,295.0,2470.0,,,2485,2475,2540.0,,103.958,158.466,130.488,35.0,18.0,1.5,120,2.2,145.0,500.0,355.0
PBS,36.0,0.3,2.0,90.0,0.0,,16.5,32.0,142.0,60.0,235.0,245.0,255.0,255.0,260.0,2720.0,,,2768,2768,2870.0,12.0,72.8731,96.2799,104.522,50.0,20.0,1.4,110,1.62,175.0,0.0,0.0
Reclado químico VELOR,72.0,0.35,2.0,60.0,2.0,2.0,11.9,30.0,185.8,60.0,285.0,290.0,295.0,300.0,305.0,2700.0,,,2725,2715,2800.0,20.0,97.3533,146.868,130.197,10.0,18.0,1.25,120,2.73,123.67,500.0,355.0
PE ASPUN,72.0,0.6,4.0,105.0,0.0,,21.5,46.4,21.2,90.0,235.0,240.0,245.0,245.0,250.0,600.0,1050.0,2500.0,2900,2886,2920.0,,50.0,62.0,77.0,35.0,20.0,2.1,141,2.18,153.33,0.0,0.0
SABIC M200024,72.0,0.6,4.0,105.0,2.0,2.0,22.5,47.0,16.3,87.4,217.0,220.0,218.0,215.0,220.0,500.0,700.0,1950.0,2150,2040,2135.0,10.0,50.0,60.0,70.0,42.0,22.0,1.9,200,1.3,110.67,850.0,500.0
PLA + CaCO3,72.0,0.3,2.0,90.0,2.0,2.0,19.0,42.0,52.0,70.0,225.0,230.0,235.0,240.0,240.0,2500.0,,,2520,2520,2600.0,,66.1742,87.4222,96.65,40.0,20.0,1.65,230,2.05,85.0,500.0,355.0
PLA + CaCO3,72.0,0.3,2.0,90.0,2.0,2.0,19.5,41.0,50.0,70.0,225.0,230.0,235.0,240.0,240.0,2550.0,,,2570,2570,2650.0,,67.3218,88.8607,96.2832,40.0,20.0,1.65,220,1.7,100.0,500.0,355.0
MP1925 + 0.3 TiO2,72.0,0.3,2.0,90.0,2.0,2.0,14.5,45.0,169.2,115.4,295.0,300.0,305.0,305.0,305.0,2740.0,,,2778,2758,2840.0,16.0,106.93,151.863,141.531,10.0,16.0,1.5,148,2.9,147.0,500.0,355.0